{"SUBJID": 0, "LBSTRESU": 1, "LBORRESU": 2, "LBDY": 3, "PEORRES": 4, "VSORRES": 5, "STUDYID": 6, "AEDECOD": 7, "VISITDY": 8, "AGE": 9, "EGTEST": 10, "EGPOS": 11, "EGSTRESN": 12, "VSTEST": 13, "BRTHDTC": 14, "AEACN": 15, "ETHNIC": 16, "AESTDY": 17, "MHTERM": 18, "LBBLFL": 19, "EGORRESU": 20, "RFENDTC": 21, "AESPID": 22, "AEENDTC": 23, "AETERM": 24, "MHSTDTC": 25, "LBTESTCD": 26, "MHCAT": 27, "MHENRF": 28, "AGEU": 29, "PEDTC": 30, "AESER": 31, "MHBODSYS": 32, "AEREL": 33, "LBSTNRLO": 34, "AEMODIFY": 35, "EGSPID": 36, "LBSPEC": 37, "EGDRVFL": 38, "LBTEST": 39, "ARM": 40, "LBORNRHI": 41, "LBSEQ": 42, "LBMETHOD": 43, "LBCAT": 44, "LBDTC": 45, "PEDY": 46, "COUNTRY": 47, "LBNRIND": 48, "LBSCAT": 49, "VSBLFL": 50, "VSSTRESU": 51, "LBREFID": 52, "PESTRESC": 53, "MHDTC": 54, "VSDTC": 55, "EGBLFL": 56, "EGDTC": 57, "VSDY": 58, "EGSTRESC": 59, "EGDY": 60, "LBORNRLO": 61, "LBSTNRHI": 62, "PETESTCD": 63, "MHSEQ": 64, "VSORRESU": 65, "AESTDTC": 66, "LBSTRESN": 67, "AESEV": 68, "LBFAST": 69, "EGSTRESU": 70, "EGORRES": 71, "SITEID": 72, "EGTESTCD": 73, "MHPRESP": 74, "VISITNUM": 75, "VSSEQ": 76, "VSTESTCD": 77, "DOMAIN": 78, "USUBJID": 79, "AEBODSYS": 80, "VSSTRESN": 81, "ARMCD": 82, "AEENRF": 83, "AEENDY": 84, "VISIT": 85, "RFSTDTC": 86, "SEX": 87, "MHOCCUR": 88, "LBSTRESC": 89, "VSSTRESC": 90, "LBORRES": 91, "VSPOS": 92, "PETEST": 93, "AESEQ": 94, "EGEVAL": 95, "RACE": 96, "EGSEQ": 97, "LBSTNRC": 98, "PESEQ": 99}