STUDYID,DOMAIN,USUBJID,AESEQ,AESPID,AETERM,AEMODIFY,AEDECOD,AEBODSYS,AESEV,AESER,AEACN,AEREL,AESTDTC,AEENDTC,AESTDY,AEENDY,AEENRF
S-CDSK-01,AE,CDISC01.200001,1,1,ANXIETY,,Anxiety,Psychiatric disorders,SEVERE,N,DOSE NOT CHANGED,POSSIBLY RELATED,16/10/2003,20/10/2003,17,21,
S-CDSK-01,AE,CDISC01.200001,2,5,LEFT KNEE PAIN WORSENING,,Arthralgia,Musculoskeletal and connective tissue disorders,SEVERE,N,DRUG WITHDRAWN,NOT RELATED,02/02/2004,,126,,AFTER
S-CDSK-01,AE,CDISC01.200001,3,3,CONSTIPATION,,Constipation,Gastrointestinal disorders,MODERATE,N,DOSE NOT CHANGED,NOT RELATED,25/12/2003,,87,,AFTER
S-CDSK-01,AE,CDISC01.200001,4,4,TIREDNESS,,Fatigue,General disorders and administration site conditions,SEVERE,N,DOSE NOT CHANGED,POSSIBLY RELATED,25/12/2003,,87,,AFTER
S-CDSK-01,AE,CDISC01.200001,5,2,NAUSEA INTERMITTENT,,Nausea,Gastrointestinal disorders,SEVERE,N,DOSE NOT CHANGED,POSSIBLY RELATED,16/10/2003,20/10/2003,17,21,
S-CDSK-01,AE,CDISC01.200002,1,3,LIGHTHEADEDNESS,,Dizziness,Nervous system disorders,MILD,N,DOSE NOT CHANGED,NOT RELATED,26/02/2004,26/02/2004,140,140,
S-CDSK-01,AE,CDISC01.200002,2,1,MUSCLE SPASMS,,Muscle spasms,Musculoskeletal and connective tissue disorders,MILD,N,DOSE NOT CHANGED,NOT RELATED,05/01/2004,,88,,AFTER
S-CDSK-01,AE,CDISC01.200002,3,2,PALPITATIONS INTERMITTENT,,Palpitations,Cardiac disorders,MILD,N,DOSE NOT CHANGED,NOT RELATED,05/01/2004,,88,,AFTER
