STUDYID,DOMAIN,USUBJID,SUBJID,RFSTDTC,RFENDTC,SITEID,BRTHDTC,AGE,AGEU,SEX,RACE,ETHNIC,ARMCD,ARM,COUNTRY
S-CDSK-01,DM,CDISC01.200002,200002,10/10/2003,28/03/2004,Site-200,22/07/1933,70,YEARS,F,BLACK OR AFRICAN AMERICAN,NOT HISPANIC OR LATINO,WONDER10,Miracle Drug 10 mg,USA
S-CDSK-01,DM,CDISC01.200005,200005,10/10/2003,28/03/2004,Site-200,22/02/1937,66,YEARS,F,WHITE,NOT HISPANIC OR LATINO,SCRNFAIL,Screen Failure,USA
