STUDYID,DOMAIN,USUBJID,SUBJID,RFSTDTC,RFENDTC,SITEID,BRTHDTC,AGE,AGEU,SEX,RACE,ETHNIC,ARMCD,ARM,COUNTRY
S-CDSK-01,DM,CDISC01.100008,100008,29/04/2003,12/10/2003,Site-100,05/08/1930,72,YEARS,M,OTHER,NOT HISPANIC OR LATINO,WONDER10,Miracle Drug 10 mg,USA
S-CDSK-01,DM,CDISC01.100014,100014,15/10/2003,29/03/2004,Site-100,01/11/1936,66,YEARS,M,WHITE,NOT HISPANIC OR LATINO,WONDER20,Miracle Drug 20 mg,USA
S-CDSK-01,DM,CDISC01.100014,100014,15/10/2003,29/03/2004,Site-100,01/11/1936,66,YEARS,M,WHITE,NOT HISPANIC OR LATINO,WONDER20,Miracle Drug 20 mg,USA
S-CDSK-01,DM,CDISC01.200001,200001,30/09/2003,02/02/2004,Site-200,03/09/1923,80,YEARS,F,MULTIPLE,NOT HISPANIC OR LATINO,PLACEBO,Placebo,USA
S-CDSK-01,DM,CDISC01.200002,200002,10/10/2003,28/03/2004,Site-200,22/07/1933,70,YEARS,F,BLACK OR AFRICAN AMERICAN,NOT HISPANIC OR LATINO,WONDER10,Miracle Drug 10 mg,USA
S-CDSK-01,DM,CDISC01.200005,200005,10/10/2003,28/03/2004,Site-200,22/02/1937,66,YEARS,F,WHITE,NOT HISPANIC OR LATINO,SCRNFAIL,Screen Failure,USA
