STUDYID,DOMAIN,USUBJID,MHSEQ,MHTERM,MHCAT,MHPRESP,MHOCCUR,MHBODSYS,MHDTC,MHSTDTC,MHENRF
S-CDSK-01,MH,CDISC01.100008,1,ARTHRITIS,MEDICAL AND SURGICAL HISTORY,,,Musculoskeletal,15/04/2003,1996,DURING/AFTER
S-CDSK-01,MH,CDISC01.100008,2,HEARING AIDS,MEDICAL AND SURGICAL HISTORY,,,Eyes-Ears-Nose-Throat,15/04/2003,1998,DURING/AFTER
S-CDSK-01,MH,CDISC01.100008,3,DEPRESSION OF ALZHEIMER'S DISEASE,PSYCHIATRIC HISTORY,Y,Y,,15/04/2003,11/04/2003,
S-CDSK-01,MH,CDISC01.100008,4,PROBABLE ALZHEIMER'S DISEASE,PSYCHIATRIC HISTORY,Y,Y,,15/04/2003,04/04/2003,
S-CDSK-01,MH,CDISC01.100014,1,SLOW GAIT,MEDICAL AND SURGICAL HISTORY,,,Neurological,06/10/2003,2001,DURING/AFTER
S-CDSK-01,MH,CDISC01.100014,2,DEPRESSION OF ALZHEIMER'S DISEASE,PSYCHIATRIC HISTORY,Y,Y,,06/10/2003,01/10/2003,
S-CDSK-01,MH,CDISC01.100014,3,PROBABLE ALZHEIMER'S DISEASE,PSYCHIATRIC HISTORY,Y,Y,,06/10/2003,2001,
S-CDSK-01,MH,CDISC01.200001,1,HEARING AIDS BOTH EARS,MEDICAL AND SURGICAL HISTORY,,,Eyes-Ears-Nose-Throat,09/09/2003,1962,DURING/AFTER
S-CDSK-01,MH,CDISC01.200001,2,THYROIDECTOMY,MEDICAL AND SURGICAL HISTORY,,,Endocrine-Metabolic,09/09/2003,1959,BEFORE
